Folder: local_repo/data_plotting/tga

Note: README
#README file

This is the repo for my research files and code.

File: Ag1_8_9_16.txt
Filename:	D:\Users\Thermal_Users\LeBlanc\Ag1 ink 8_9_16.tg1d

Temperature (°C)	Weight (mg)
86.391	112.2734
103.954	111.7478
107.735	111.3342
108.974	110.9389
109.377	110.5618
109.569	110.1943
109.624	109.8361
109.668	109.4947
109.694	109.1684
109.692	108.8467
109.683	108.5544
109.624	108.2776
109.596	108.0151
109.608	107.7658
109.571	107.5393
109.533	107.3153
109.519	107.1009
109.534	106.8982
109.489	106.7066
109.491	106.5252
109.421	106.3551
109.421	106.1965
109.448	106.0478
109.410	105.9097
109.255	105.7827
109.300	105.6662
109.310	105.5612
109.337	105.4670
109.265	105.3839
109.251	105.3114
109.252	105.2486
110.957	105.1952
114.111	105.1445
117.466	105.0973
120.947	105.0508
124.398	105.0046
127.849	104.9593
131.345	104.9153
134.800	104.8731
138.313	104.8344
141.798	104.7999
145.307	104.7666
148.669	104.7351
152.239	104.7052
155.777	104.6764
159.288	104.6488
162.714	104.6211
166.225	104.5919
169.582	104.5631
172.801	104.5334
175.836	104.5029
178.978	104.4712
182.099	104.4393
185.183	104.4062
188.306	104.3712
191.512	104.3350
194.681	104.2974
197.912	104.2577
201.023	104.2165
204.234	104.1739
207.456	104.1297
210.693	104.0838
213.805	104.0368
217.096	103.9903
220.187	103.9438
223.334	103.8978
226.462	103.8539
229.606	103.8127
232.793	103.7733
235.972	103.7358
239.081	103.7009
242.127	103.6660
245.386	103.6314
248.489	103.5963
251.572	103.5613
254.570	103.5253
257.588	103.4886
260.614	103.4518
263.520	103.4132
266.506	103.3743
269.438	103.3347
272.420	103.2951
275.430	103.2540
278.350	103.2131
281.383	103.1736
284.376	103.1346
287.397	103.0969
290.506	103.0602
293.513	103.0244
296.753	102.9896
299.744	102.9562
302.804	102.9235
305.749	102.8924
308.793	102.8623
311.955	102.8328
315.043	102.8042
318.153	102.7761
321.259	102.7488
324.405	102.7217
327.519	102.6954
330.655	102.6697
334.034	102.6445
337.191	102.6199
340.294	102.5963
343.409	102.5730
346.417	102.5506
349.562	102.5288
352.723	102.5071
355.962	102.4864
359.138	102.4660
362.291	102.4458
365.587	102.4263
368.829	102.4063
372.029	102.3858
375.210	102.3634
378.477	102.3411
381.772	102.3169
384.854	102.2904
388.221	102.2625
391.521	102.2335
394.628	102.2031
397.888	102.1725
401.184	102.1412
404.458	102.1091
407.606	102.0768
411.029	102.0438
414.340	102.0108
417.829	101.9774
420.977	101.9442
424.043	101.9118
427.260	101.8799
430.567	101.8487
433.840	101.8189
437.032	101.7900
440.357	101.7627
443.587	101.7366
446.764	101.7118
450.078	101.6884
453.441	101.6659
456.608	101.6450
459.754	101.6253
462.945	101.6067
466.226	101.5890
469.678	101.5727
472.977	101.5568
476.165	101.5416
479.672	101.5275
482.956	101.5137
486.486	101.5004
489.652	101.4870
493.115	101.4744
496.147	101.4620
499.531	101.4499
503.014	101.4383
506.122	101.4266
509.369	101.4154
512.731	101.4049
515.982	101.3941
519.110	101.3835
522.524	101.3732
525.681	101.3625
528.909	101.3527
532.388	101.3434
535.756	101.3335
539.052	101.3245
542.698	101.3155
545.996	101.3072
549.198	101.2985
552.519	101.2906
556.279	101.2825
559.379	101.2747
562.680	101.2673
565.980	101.2596
569.893	101.2522
573.541	101.2451
576.879	101.2381
580.091	101.2311
583.786	101.2243
587.283	101.2178
590.684	101.2115
593.814	101.2051
597.288	101.1995
600.709	101.1936
603.844	101.1882
607.422	101.1826
610.694	101.1774
614.142	101.1726
617.387	101.1677
620.859	101.1630
624.094	101.1588
626.795	101.1543
630.242	101.1504
633.621	101.1465
636.651	101.1426
640.098	101.1389
643.240	101.1354
646.329	101.1321
649.633	101.1288
652.640	101.1251
655.903	101.1223
659.242	101.1195
662.624	101.1166
665.998	101.1139
669.855	101.1115
673.588	101.1087
677.161	101.1067
681.332	101.1044
684.723	101.1020
688.111	101.0996
691.943	101.0974
695.522	101.0955
698.958	101.0934
702.821	101.0910
706.254	101.0889
709.684	101.0869
713.794	101.0844
717.332	101.0829
721.201	101.0807
724.683	101.0787
727.812	101.0767
731.526	101.0743
734.871	101.0721
738.196	101.0697
741.812	101.0676
745.360	101.0649
748.366	101.0624
752.043	101.0596
755.294	101.0569
759.186	101.0538
761.618	101.0510
765.321	101.0477
768.717	101.0445
772.302	101.0411
775.909	101.0376
778.572	101.0344
781.993	101.0305
785.669	101.0269
789.404	101.0223
791.477	101.0181
795.643	101.0134
799.387	101.0088
801.110	101.0036
800.803	100.9988
800.497	100.9941
801.123	100.9900
800.724	100.9851
800.397	100.9804
800.815	100.9757
800.678	100.9713
800.627	100.9669
800.678	100.9620
800.138	100.9572
800.410	100.9530
800.813	100.9483
800.670	100.9437
800.599	100.9391
800.820	100.9347
800.952	100.9303
800.438	100.9252
800.630	100.9204
800.636	100.9158
800.638	100.9113
800.465	100.9067
800.586	100.9019
800.677	100.8972
800.523	100.8928
800.654	100.8882
800.077	100.8838
800.314	100.8796
800.121	100.8753
800.200	100.8711
800.097	100.8668
800.268	100.8622
800.068	100.8580
800.309	100.8536
800.009	100.8495
800.301	100.8451
800.510	100.8412
800.650	100.8369
800.508	100.8327
800.707	100.8284
800.854	100.8242
800.368	100.8196
800.525	100.8157
800.759	100.8115
800.765	100.8074

File: Ag1_8_31_16_%vtemp.txt
Filename:	D:\Users\Thermal_Users\LeBlanc\Ag1_8_31_16.tg1d

Temperature (°C)	Weight % (%)
26.213	99.9765
27.401	99.9603
27.679	99.9190
27.755	99.8730
27.835	99.8290
23.314	99.7421
70.785	99.3967
98.186	98.9863
105.100	98.4393
107.627	97.9798
108.782	97.5930
109.428	97.2261
109.691	96.8737
109.787	96.5371
109.831	96.2172
109.832	95.9119
109.824	95.6233
109.851	95.3435
109.841	95.0811
109.833	94.8286
109.814	94.5923
109.823	94.3680
109.793	94.1565
109.765	93.9579
109.778	93.7711
109.744	93.5958
109.757	93.4310
109.583	93.2789
109.474	93.1404
109.660	93.0131
109.680	92.8971
109.675	92.7927
109.665	92.6993
109.654	92.6175
109.635	92.5452
109.593	92.4816
109.593	92.4268
109.565	92.3807
109.505	92.3418
109.485	92.3098
109.459	92.2805
109.410	92.2547
109.299	92.2321
109.272	92.2117
109.342	92.1944
109.364	92.1777
109.375	92.1632
109.340	92.1501
109.345	92.1379
109.349	92.1270
109.322	92.1174
109.283	92.1078
109.248	92.0996
109.196	92.0920
109.132	92.0845
109.248	92.0778
109.234	92.0712
109.251	92.0656
109.232	92.0601
109.241	92.0550
109.222	92.0499
109.244	92.0452
109.253	92.0412
112.175	92.0383
134.180	92.0322
161.399	92.0067
187.946	91.9472
203.564	91.8387
207.004	91.7326
208.392	91.6556
209.028	91.5960
209.351	91.5458
209.451	91.5024
209.603	91.4624
209.583	91.4231
209.530	91.3861
209.513	91.3524
209.572	91.3216
209.620	91.2943
209.627	91.2698
209.636	91.2478
209.497	91.2276
209.413	91.2101
209.409	91.1932
209.378	91.1780
209.500	91.1636
209.482	91.1496
209.453	91.1365
209.450	91.1240
209.494	91.1116
209.533	91.0997
209.436	91.0879
209.397	91.0764
209.403	91.0656
209.489	91.0540
209.401	91.0435
209.382	91.0333
209.362	91.0234
209.348	91.0135
209.318	91.0043
209.290	90.9951
209.308	90.9861
209.296	90.9777
209.291	90.9690
209.232	90.9605
209.198	90.9526
209.227	90.9451
209.013	90.9375
208.905	90.9302
208.872	90.9223
208.725	90.9155
208.703	90.9088
208.780	90.9021
209.055	90.8954
209.135	90.8886
209.111	90.8828
209.038	90.8751
209.089	90.8693
209.034	90.8631
209.060	90.8567
209.056	90.8507
209.101	90.8446
209.035	90.8386
209.088	90.8323
209.065	90.8268
208.979	90.8207
208.965	90.8155
208.991	90.8094
208.941	90.8036
208.986	90.7985
209.122	90.7928
209.127	90.7876
208.957	90.7818
209.051	90.7767
209.117	90.7714
209.144	90.7664
209.158	90.7614
209.151	90.7559
209.045	90.7512
208.957	90.7460
208.919	90.7408
208.999	90.7362
209.126	90.7308
209.147	90.7260
209.166	90.7213
209.121	90.7164
209.115	90.7126
209.074	90.7069
209.161	90.7023
209.165	90.6980
209.194	90.6936
209.150	90.6882
209.135	90.6844
209.162	90.6798
209.191	90.6752
209.150	90.6712
209.150	90.6659
209.150	90.6621
209.150	90.6579
208.983	90.6541
209.009	90.6495
209.026	90.6459
209.031	90.6419
209.061	90.6379
209.041	90.6339
209.053	90.6300
209.053	90.6263
209.045	90.6221
209.014	90.6185
209.050	90.6148
209.053	90.6108
209.072	90.6071
209.113	90.6032
209.064	90.5991
209.096	90.5957
209.148	90.5918
209.132	90.5884
209.111	90.5843
209.128	90.5814
211.174	90.5773
230.994	90.5727
249.399	90.5571
253.260	90.5337
254.665	90.5124
255.354	90.4938
255.633	90.4766
255.807	90.4607
255.905	90.4460
256.048	90.4314
256.174	90.4173
256.227	90.4042
256.274	90.3918
256.293	90.3797
256.333	90.3679
256.359	90.3561
256.331	90.3453
256.339	90.3344
256.324	90.3237
256.293	90.3137
256.312	90.3043
256.288	90.2945
256.233	90.2852
256.200	90.2762
256.264	90.2678
256.282	90.2594
256.247	90.2515
256.185	90.2433
256.213	90.2354
256.245	90.2280
256.265	90.2204
256.238	90.2132
256.181	90.2061
256.189	90.1994
256.180	90.1928
256.165	90.1857
256.179	90.1796
256.185	90.1730
256.160	90.1662
256.143	90.1604
256.146	90.1546
256.131	90.1490
256.125	90.1427
256.124	90.1374
256.054	90.1323
256.122	90.1269
256.073	90.1214
256.032	90.1161
256.105	90.1103
256.091	90.1054
256.074	90.1008
256.097	90.0955
256.058	90.0908
256.033	90.0859
256.067	90.0815
256.083	90.0768
256.017	90.0721
256.000	90.0675
256.056	90.0632
256.053	90.0585
255.932	90.0540
255.787	90.0495
255.660	90.0451
255.725	90.0415
255.657	90.0371
255.809	90.0319
255.894	90.0279
255.937	90.0234
255.901	90.0190
255.847	90.0144
255.917	90.0103
255.857	90.0053
255.812	90.0016
255.719	89.9968
255.792	89.9927
255.860	89.9882
255.857	89.9841
255.916	89.9792
255.966	89.9746
255.923	89.9698
255.920	89.9654
255.916	89.9606
255.882	89.9564
255.876	89.9517
255.894	89.9467
255.970	89.9419
255.921	89.9369
255.983	89.9320
256.006	89.9271
256.008	89.9221
255.986	89.9171
255.974	89.9125
255.968	89.9070
255.982	89.9017
255.964	89.8963
255.944	89.8912
255.959	89.8858
256.010	89.8809
256.035	89.8753
255.979	89.8703
255.863	89.8646
255.902	89.8590
255.877	89.8541
255.908	89.8489
255.856	89.8437
255.887	89.8384
255.890	89.8331
255.986	89.8273
255.969	89.8221
255.883	89.8160
255.934	89.8105
256.012	89.8049
256.005	89.7996
256.012	89.7942
255.988	89.7896

File: Ag1_8_31_16_%vtime.txt
Filename:	D:\Users\Thermal_Users\LeBlanc\Ag1_8_31_16.tg1d

Time (min)	Weight % (%)
0.000	99.9765
0.267	99.9603
0.533	99.9190
0.800	99.8730
1.067	99.8290
1.333	99.7421
1.600	99.3967
1.867	98.9863
2.133	98.4393
2.400	97.9798
2.667	97.5930
2.933	97.2261
3.200	96.8737
3.467	96.5371
3.733	96.2172
4.000	95.9119
4.267	95.6233
4.533	95.3435
4.800	95.0811
5.067	94.8286
5.333	94.5923
5.600	94.3680
5.867	94.1565
6.133	93.9579
6.400	93.7711
6.667	93.5958
6.933	93.4310
7.200	93.2789
7.467	93.1404
7.733	93.0131
8.000	92.8971
8.267	92.7927
8.533	92.6993
8.800	92.6175
9.067	92.5452
9.333	92.4816
9.600	92.4268
9.867	92.3807
10.133	92.3418
10.400	92.3098
10.667	92.2805
10.933	92.2547
11.200	92.2321
11.467	92.2117
11.733	92.1944
12.000	92.1777
12.267	92.1632
12.533	92.1501
12.800	92.1379
13.067	92.1270
13.333	92.1174
13.600	92.1078
13.867	92.0996
14.133	92.0920
14.400	92.0845
14.667	92.0778
14.933	92.0712
15.200	92.0656
15.467	92.0601
15.733	92.0550
16.000	92.0499
16.267	92.0452
16.533	92.0412
16.800	92.0383
17.067	92.0322
17.333	92.0067
17.600	91.9472
17.867	91.8387
18.133	91.7326
18.400	91.6556
18.667	91.5960
18.933	91.5458
19.200	91.5024
19.467	91.4624
19.733	91.4231
20.000	91.3861
20.267	91.3524
20.533	91.3216
20.800	91.2943
21.067	91.2698
21.333	91.2478
21.600	91.2276
21.867	91.2101
22.133	91.1932
22.400	91.1780
22.667	91.1636
22.933	91.1496
23.200	91.1365
23.467	91.1240
23.733	91.1116
24.000	91.0997
24.267	91.0879
24.533	91.0764
24.800	91.0656
25.067	91.0540
25.333	91.0435
25.600	91.0333
25.867	91.0234
26.133	91.0135
26.400	91.0043
26.667	90.9951
26.933	90.9861
27.200	90.9777
27.467	90.9690
27.733	90.9605
28.000	90.9526
28.267	90.9451
28.533	90.9375
28.800	90.9302
29.067	90.9223
29.333	90.9155
29.600	90.9088
29.867	90.9021
30.133	90.8954
30.400	90.8886
30.667	90.8828
30.933	90.8751
31.200	90.8693
31.467	90.8631
31.733	90.8567
32.000	90.8507
32.267	90.8446
32.533	90.8386
32.800	90.8323
33.067	90.8268
33.333	90.8207
33.600	90.8155
33.867	90.8094
34.133	90.8036
34.400	90.7985
34.667	90.7928
34.933	90.7876
35.200	90.7818
35.467	90.7767
35.733	90.7714
36.000	90.7664
36.267	90.7614
36.533	90.7559
36.800	90.7512
37.067	90.7460
37.333	90.7408
37.600	90.7362
37.867	90.7308
38.133	90.7260
38.400	90.7213
38.667	90.7164
38.933	90.7126
39.200	90.7069
39.467	90.7023
39.733	90.6980
40.000	90.6936
40.267	90.6882
40.533	90.6844
40.800	90.6798
41.067	90.6752
41.333	90.6712
41.600	90.6659
41.867	90.6621
42.133	90.6579
42.400	90.6541
42.667	90.6495
42.933	90.6459
43.200	90.6419
43.467	90.6379
43.733	90.6339
44.000	90.6300
44.267	90.6263
44.533	90.6221
44.800	90.6185
45.067	90.6148
45.333	90.6108
45.600	90.6071
45.867	90.6032
46.133	90.5991
46.400	90.5957
46.667	90.5918
46.933	90.5884
47.200	90.5843
47.467	90.5814
47.733	90.5773
48.000	90.5727
48.267	90.5571
48.533	90.5337
48.800	90.5124
49.067	90.4938
49.333	90.4766
49.600	90.4607
49.867	90.4460
50.133	90.4314
50.400	90.4173
50.667	90.4042
50.933	90.3918
51.200	90.3797
51.467	90.3679
51.733	90.3561
52.000	90.3453
52.267	90.3344
52.533	90.3237
52.800	90.3137
53.067	90.3043
53.333	90.2945
53.600	90.2852
53.867	90.2762
54.133	90.2678
54.400	90.2594
54.667	90.2515
54.933	90.2433
55.200	90.2354
55.467	90.2280
55.733	90.2204
56.000	90.2132
56.267	90.2061
56.533	90.1994
56.800	90.1928
57.067	90.1857
57.333	90.1796
57.600	90.1730
57.867	90.1662
58.133	90.1604
58.400	90.1546
58.667	90.1490
58.933	90.1427
59.200	90.1374
59.467	90.1323
59.733	90.1269
60.000	90.1214
60.267	90.1161
60.533	90.1103
60.800	90.1054
61.067	90.1008
61.333	90.0955
61.600	90.0908
61.867	90.0859
62.133	90.0815
62.400	90.0768
62.667	90.0721
62.933	90.0675
63.200	90.0632
63.467	90.0585
63.733	90.0540
64.000	90.0495
64.267	90.0451
64.533	90.0415
64.800	90.0371
65.067	90.0319
65.333	90.0279
65.600	90.0234
65.867	90.0190
66.133	90.0144
66.400	90.0103
66.667	90.0053
66.933	90.0016
67.200	89.9968
67.467	89.9927
67.733	89.9882
68.000	89.9841
68.267	89.9792
68.533	89.9746
68.800	89.9698
69.067	89.9654
69.333	89.9606
69.600	89.9564
69.867	89.9517
70.133	89.9467
70.400	89.9419
70.667	89.9369
70.933	89.9320
71.200	89.9271
71.467	89.9221
71.733	89.9171
72.000	89.9125
72.267	89.9070
72.533	89.9017
72.800	89.8963
73.067	89.8912
73.333	89.8858
73.600	89.8809
73.867	89.8753
74.133	89.8703
74.400	89.8646
74.667	89.8590
74.933	89.8541
75.200	89.8489
75.467	89.8437
75.733	89.8384
76.000	89.8331
76.267	89.8273
76.533	89.8221
76.800	89.8160
77.067	89.8105
77.333	89.8049
77.600	89.7996
77.867	89.7942
78.083	89.7896

File: Ag2 8_9_16.txt
Filename:	D:\Users\Thermal_Users\LeBlanc\Ag2 ink 8_9_16.tg1d

Temperature (°C)	Weight (mg)
26.207	74.9123
27.488	74.9134
27.716	74.9110
27.773	74.9097
27.938	74.9099
28.433	74.9099
33.857	74.9317
34.580	75.2002
45.622	75.1828
51.334	75.1600
55.448	75.1389
59.193	75.1178
62.711	75.0943
66.131	75.0686
69.527	75.0397
72.922	75.0086
76.290	74.9732
79.627	74.9367
82.951	74.8960
86.246	74.8532
89.636	74.8080
92.966	74.7610
96.299	74.7104
99.582	74.6580
102.925	74.6028
106.293	74.5459
109.669	74.4865
112.933	74.4246
116.248	74.3606
119.589	74.2936
122.945	74.2234
126.175	74.1498
129.504	74.0725
132.786	73.9924
136.065	73.9086
139.411	73.8221
142.673	73.7332
145.995	73.6422
149.181	73.5496
152.556	73.4561
155.865	73.3612
159.141	73.2663
162.482	73.1722
165.772	73.0783
169.095	72.9857
172.151	72.8953
175.122	72.8081
178.118	72.7237
181.068	72.6429
183.979	72.5657
186.937	72.4927
189.896	72.4218
192.924	72.3547
195.984	72.2898
199.003	72.2269
202.122	72.1653
205.189	72.1044
208.204	72.0433
211.234	71.9828
214.321	71.9282
217.396	71.8696
220.445	71.8109
223.369	71.7522
226.413	71.6930
229.424	71.6344
232.419	71.5754
235.358	71.5167
238.251	71.4584
241.205	71.4002
244.109	71.3422
247.056	71.2834
249.928	71.2288
252.847	71.1746
255.670	71.1204
258.554	71.0728
261.427	71.0229
264.359	70.9745
267.186	70.9277
269.946	70.8832
272.844	70.8402
275.732	70.7990
278.623	70.7596
281.377	70.7217
284.274	70.6858
287.068	70.6521
289.967	70.6214
292.855	70.5913
295.742	70.5644
298.755	70.5403
301.639	70.5165
304.515	70.4944
307.474	70.4735
310.256	70.4543
313.174	70.4352
316.094	70.4176
319.016	70.3999
322.026	70.3834
325.048	70.3670
328.008	70.3503
330.996	70.3341
333.976	70.3180
337.046	70.3016
339.973	70.2852
342.996	70.2682
345.936	70.2508
349.112	70.2337
352.082	70.2158
354.998	70.1977
358.179	70.1790
361.188	70.1599
364.202	70.1399
367.175	70.1196
370.428	70.0980
373.499	70.0755
376.525	70.0520
379.558	70.0269
382.567	70.0022
385.796	69.9762
388.820	69.9498
391.800	69.9232
395.241	69.8964
398.401	69.8703
401.463	69.8443
404.524	69.8190
407.502	69.7953
410.567	69.7723
413.806	69.7509
416.702	69.7305
419.826	69.7108
422.988	69.6927
426.085	69.6754
429.127	69.6600
432.185	69.6453
435.382	69.6318
438.406	69.6194
441.470	69.6082
444.719	69.5975
447.756	69.5879
450.782	69.5789
453.863	69.5703
456.931	69.5625
460.047	69.5544
463.103	69.5469
466.292	69.5398
468.913	69.5327
472.052	69.5256
475.251	69.5187
478.477	69.5124
481.451	69.5062
484.613	69.4994
487.951	69.4930
491.142	69.4868
494.289	69.4807
497.422	69.4748
500.679	69.4686
504.065	69.4628
507.185	69.4573
510.334	69.4507
513.347	69.4451
516.545	69.4393
519.857	69.4332
523.095	69.4265
526.120	69.4197
529.211	69.4124
532.442	69.4047
535.597	69.3963
538.435	69.3879
541.815	69.3791
544.952	69.3693
548.063	69.3602
551.139	69.3505
554.459	69.3406
557.312	69.3308
560.667	69.3214
563.886	69.3120
567.040	69.3027
570.189	69.2933
573.744	69.2841
576.936	69.2757
580.102	69.2674
582.813	69.2595
586.457	69.2521
589.714	69.2450
592.960	69.2379
595.855	69.2306
599.196	69.2242
602.570	69.2173
605.726	69.2110
608.835	69.2049
612.050	69.1992
615.523	69.1928
618.681	69.1871
621.761	69.1816
624.783	69.1761
627.927	69.1705
630.855	69.1656
634.137	69.1600
637.264	69.1555
640.317	69.1512
643.155	69.1465
645.835	69.1419
649.035	69.1374
652.231	69.1335
654.772	69.1293
658.078	69.1251
661.530	69.1209
664.411	69.1171
667.749	69.1134
671.688	69.1095
675.096	69.1057
678.846	69.1021
682.416	69.0976
685.745	69.0949
689.212	69.0903
692.354	69.0866
695.720	69.0824
699.219	69.0788
702.641	69.0748
706.053	69.0714
709.384	69.0678
712.963	69.0642
716.269	69.0599
719.759	69.0566
723.238	69.0530
726.689	69.0496
730.134	69.0457
733.543	69.0416
736.766	69.0379
739.961	69.0344
743.385	69.0303
746.549	69.0264
749.645	69.0226
752.592	69.0189
756.238	69.0147
759.483	69.0107
762.667	69.0065
766.070	69.0024
769.111	68.9981
772.427	68.9938
775.844	68.9888
778.885	68.9843
782.075	68.9796
785.509	68.9747
788.764	68.9692
792.221	68.9638
795.522	68.9587
798.757	68.9530
800.640	68.9476
800.907	68.9420
800.530	68.9367
800.431	68.9315
800.584	68.9258
800.275	68.9209
800.178	68.9159
800.095	68.9106
800.223	68.9052
800.082	68.8996
800.284	68.8952
800.312	68.8898
800.571	68.8853
799.644	68.8802
800.061	68.8747
800.217	68.8693
800.346	68.8641
800.292	68.8589
800.248	68.8537
800.091	68.8486
800.369	68.8433
800.170	68.8379
800.340	68.8327
800.208	68.8276
800.086	68.8221
799.810	68.8172
800.076	68.8118
800.334	68.8066
800.208	68.8011
800.233	68.7955
800.072	68.7905
800.199	68.7855
800.206	68.7800
800.155	68.7746
799.976	68.7688
799.948	68.7637
800.084	68.7586
800.083	68.7534
800.116	68.7475
799.844	68.7425
800.242	68.7371
799.931	68.7318
799.736	68.7264
799.828	68.7211
799.887	68.7158
799.869	68.7099
799.499	68.7048
799.430	68.7012

File: Ag2_8_31_16_%vtemp.txt
Filename:	D:\Users\Thermal_Users\LeBlanc\Ag2_8_31_16.tg1d

Temperature (°C)	Weight % (%)
26.199	99.9922
27.395	99.9993
27.678	99.9949
27.754	100.0024
27.834	99.9906
23.770	100.0195
71.314	99.9871
98.120	99.9167
105.315	99.8028
107.991	99.7067
109.003	99.5948
109.417	99.4925
109.295	99.4077
109.379	99.3208
109.467	99.2363
109.791	99.1951
109.806	99.1301
109.875	99.0142
109.932	98.9374
109.955	98.8518
109.936	98.7655
109.941	98.7137
109.858	98.6626
109.807	98.5875
109.814	98.5275
109.771	98.4591
109.752	98.3957
109.744	98.3474
109.682	98.2825
109.527	98.2368
109.555	98.1729
109.527	98.1303
109.481	98.0812
109.430	98.0486
109.419	97.9889
109.401	97.9401
109.419	97.8962
109.440	97.8501
109.365	97.7955
109.201	97.7609
109.250	97.7233
109.211	97.6680
109.130	97.6390
109.105	97.6058
109.139	97.5596
109.120	97.5309
109.109	97.5001
109.168	97.4604
109.150	97.4320
109.200	97.3920
109.197	97.3724
109.225	97.3399
109.173	97.3189
109.119	97.2717
109.183	97.2644
109.240	97.2230
109.253	97.2036
109.206	97.1657
109.192	97.1508
109.228	97.1077
109.255	97.0881
109.277	97.0644
109.276	97.0398
111.407	97.0315
132.589	97.0085
159.781	96.9299
186.525	96.7982
203.477	96.5550
207.047	96.3057
208.494	96.0907
209.135	95.9265
209.574	95.8021
209.683	95.6721
209.786	95.5759
209.796	95.4892
209.590	95.3932
209.604	95.3334
209.551	95.2502
209.575	95.1939
209.475	95.1234
209.461	95.0697
209.461	95.0160
209.505	94.9612
209.461	94.8988
209.440	94.8544
209.497	94.8182
209.361	94.7735
209.364	94.7298
209.199	94.6841
209.247	94.6472
209.118	94.6135
209.190	94.5756
209.200	94.5435
209.209	94.5070
209.131	94.4813
208.957	94.4479
209.202	94.4129
209.155	94.3853
209.181	94.3627
209.031	94.3355
208.786	94.3119
208.340	94.2880
208.349	94.2587
208.253	94.2389
208.272	94.2152
208.365	94.1940
208.378	94.1739
208.774	94.1567
208.931	94.1353
208.930	94.1146
208.837	94.0960
208.887	94.0777
208.852	94.0622
208.834	94.0429
208.812	94.0286
208.860	94.0122
208.820	93.9985
208.805	93.9777
208.842	93.9604
208.739	93.9503
208.724	93.9350
208.638	93.9210
208.709	93.9043
208.635	93.8958
208.643	93.8857
208.665	93.8806
208.693	93.8629
208.784	93.8508
208.917	93.8390
209.049	93.8298
208.992	93.8215
208.986	93.8111
208.679	93.7978
208.593	93.7862
208.892	93.7758
208.725	93.7749
208.679	93.7584
208.747	93.7562
208.824	93.7475
208.977	93.7355
208.916	93.7341
208.906	93.7183
208.869	93.7182
208.755	93.7060
208.776	93.6908
208.744	93.6888
208.867	93.6826
208.941	93.6756
208.981	93.6642
208.758	93.6568
208.684	93.6542
208.721	93.6499
208.661	93.6426
208.848	93.6341
208.881	93.6339
208.915	93.6254
208.904	93.6208
208.961	93.6119
208.882	93.6079
208.811	93.6008
208.806	93.5923
208.766	93.5883
208.713	93.5824
208.683	93.5750
208.609	93.5725
208.710	93.5695
208.642	93.5614
208.541	93.5557
208.719	93.5490
208.811	93.5459
208.919	93.5431
208.911	93.5399
208.877	93.5397
208.816	93.5299
208.940	93.5220
208.945	93.5210
208.913	93.5137
208.947	93.5126
208.989	93.5061
210.299	93.5046
229.333	93.4972
248.632	93.4839
252.745	93.4668
254.445	93.4485
255.198	93.4332
255.453	93.4187
255.613	93.4044
255.643	93.3913
255.731	93.3785
255.678	93.3663
255.746	93.3541
255.854	93.3424
255.883	93.3318
255.748	93.3222
255.734	93.3109
255.795	93.3011
255.958	93.2922
255.968	93.2822
255.852	93.2734
255.846	93.2644
256.005	93.2561
256.047	93.2485
255.900	93.2403
255.951	93.2327
256.046	93.2248
256.104	93.2175
256.160	93.2108
256.096	93.2030
256.128	93.1971
256.091	93.1901
256.115	93.1847
255.871	93.1790
255.888	93.1725
255.957	93.1666
256.085	93.1606
256.033	93.1553
255.991	93.1505
256.014	93.1443
256.016	93.1391
256.070	93.1344
256.050	93.1293
256.098	93.1242
255.958	93.1192
255.872	93.1139
255.931	93.1092
255.916	93.1039
255.882	93.0994
255.914	93.0946
255.911	93.0903
255.885	93.0862
255.818	93.0816
255.856	93.0777
256.104	93.0735
256.088	93.0689
255.833	93.0651
255.960	93.0605
256.027	93.0570
256.122	93.0527
256.159	93.0491
256.187	93.0452
256.178	93.0416
256.124	93.0370
256.160	93.0336
256.174	93.0303
256.106	93.0263
256.113	93.0239
256.157	93.0200
256.156	93.0171
256.138	93.0130
256.157	93.0093
256.164	93.0064
256.191	93.0026
256.140	92.9996
256.119	92.9968
256.174	92.9933
256.107	92.9908
256.106	92.9880
256.146	92.9854
256.135	92.9821
256.105	92.9795
256.090	92.9764
256.091	92.9731
256.075	92.9704
256.023	92.9674
255.941	92.9641
255.965	92.9616
256.033	92.9583
256.145	92.9561
256.107	92.9528
256.124	92.9497
256.111	92.9474
256.120	92.9442
256.097	92.9418
256.070	92.9388
256.089	92.9359
256.039	92.9334
256.082	92.9306
256.087	92.9285
256.090	92.9264
256.118	92.9234
256.108	92.9214
256.128	92.9183
256.118	92.9160
256.123	92.9130
256.125	92.9104
256.106	92.9086
256.141	92.9061
256.126	92.9038
255.994	92.9012
255.925	92.8991
255.970	92.8970
255.929	92.8943
255.913	92.8922
256.005	92.8902