Folder: local_repo/data_plotting/tga (part 2)

File: Ag2_8_31_16_%vtime.txt
Filename:	D:\Users\Thermal_Users\LeBlanc\Ag2_8_31_16.tg1d

Time (min)	Weight % (%)
0.000	99.9922
0.267	99.9993
0.533	99.9949
0.800	100.0024
1.067	99.9906
1.333	100.0195
1.600	99.9871
1.867	99.9167
2.133	99.8028
2.400	99.7067
2.667	99.5948
2.933	99.4925
3.200	99.4077
3.467	99.3208
3.733	99.2363
4.000	99.1951
4.267	99.1301
4.533	99.0142
4.800	98.9374
5.067	98.8518
5.333	98.7655
5.600	98.7137
5.867	98.6626
6.133	98.5875
6.400	98.5275
6.667	98.4591
6.933	98.3957
7.200	98.3474
7.467	98.2825
7.733	98.2368
8.000	98.1729
8.267	98.1303
8.533	98.0812
8.800	98.0486
9.067	97.9889
9.333	97.9401
9.600	97.8962
9.867	97.8501
10.133	97.7955
10.400	97.7609
10.667	97.7233
10.933	97.6680
11.200	97.6390
11.467	97.6058
11.733	97.5596
12.000	97.5309
12.267	97.5001
12.533	97.4604
12.800	97.4320
13.067	97.3920
13.333	97.3724
13.600	97.3399
13.867	97.3189
14.133	97.2717
14.400	97.2644
14.667	97.2230
14.933	97.2036
15.200	97.1657
15.467	97.1508
15.733	97.1077
16.000	97.0881
16.267	97.0644
16.533	97.0398
16.800	97.0315
17.067	97.0085
17.333	96.9299
17.600	96.7982
17.867	96.5550
18.133	96.3057
18.400	96.0907
18.667	95.9265
18.933	95.8021
19.200	95.6721
19.467	95.5759
19.733	95.4892
20.000	95.3932
20.267	95.3334
20.533	95.2502
20.800	95.1939
21.067	95.1234
21.333	95.0697
21.600	95.0160
21.867	94.9612
22.133	94.8988
22.400	94.8544
22.667	94.8182
22.933	94.7735
23.200	94.7298
23.467	94.6841
23.733	94.6472
24.000	94.6135
24.267	94.5756
24.533	94.5435
24.800	94.5070
25.067	94.4813
25.333	94.4479
25.600	94.4129
25.867	94.3853
26.133	94.3627
26.400	94.3355
26.667	94.3119
26.933	94.2880
27.200	94.2587
27.467	94.2389
27.733	94.2152
28.000	94.1940
28.267	94.1739
28.533	94.1567
28.800	94.1353
29.067	94.1146
29.333	94.0960
29.600	94.0777
29.867	94.0622
30.133	94.0429
30.400	94.0286
30.667	94.0122
30.933	93.9985
31.200	93.9777
31.467	93.9604
31.733	93.9503
32.000	93.9350
32.267	93.9210
32.533	93.9043
32.800	93.8958
33.067	93.8857
33.333	93.8806
33.600	93.8629
33.867	93.8508
34.133	93.8390
34.400	93.8298
34.667	93.8215
34.933	93.8111
35.200	93.7978
35.467	93.7862
35.733	93.7758
36.000	93.7749
36.267	93.7584
36.533	93.7562
36.800	93.7475
37.067	93.7355
37.333	93.7341
37.600	93.7183
37.867	93.7182
38.133	93.7060
38.400	93.6908
38.667	93.6888
38.933	93.6826
39.200	93.6756
39.467	93.6642
39.733	93.6568
40.000	93.6542
40.267	93.6499
40.533	93.6426
40.800	93.6341
41.067	93.6339
41.333	93.6254
41.600	93.6208
41.867	93.6119
42.133	93.6079
42.400	93.6008
42.667	93.5923
42.933	93.5883
43.200	93.5824
43.467	93.5750
43.733	93.5725
44.000	93.5695
44.267	93.5614
44.533	93.5557
44.800	93.5490
45.067	93.5459
45.333	93.5431
45.600	93.5399
45.867	93.5397
46.133	93.5299
46.400	93.5220
46.667	93.5210
46.933	93.5137
47.200	93.5126
47.467	93.5061
47.733	93.5046
48.000	93.4972
48.267	93.4839
48.533	93.4668
48.800	93.4485
49.067	93.4332
49.333	93.4187
49.600	93.4044
49.867	93.3913
50.133	93.3785
50.400	93.3663
50.667	93.3541
50.933	93.3424
51.200	93.3318
51.467	93.3222
51.733	93.3109
52.000	93.3011
52.267	93.2922
52.533	93.2822
52.800	93.2734
53.067	93.2644
53.333	93.2561
53.600	93.2485
53.867	93.2403
54.133	93.2327
54.400	93.2248
54.667	93.2175
54.933	93.2108
55.200	93.2030
55.467	93.1971
55.733	93.1901
56.000	93.1847
56.267	93.1790
56.533	93.1725
56.800	93.1666
57.067	93.1606
57.333	93.1553
57.600	93.1505
57.867	93.1443
58.133	93.1391
58.400	93.1344
58.667	93.1293
58.933	93.1242
59.200	93.1192
59.467	93.1139
59.733	93.1092
60.000	93.1039
60.267	93.0994
60.533	93.0946
60.800	93.0903
61.067	93.0862
61.333	93.0816
61.600	93.0777
61.867	93.0735
62.133	93.0689
62.400	93.0651
62.667	93.0605
62.933	93.0570
63.200	93.0527
63.467	93.0491
63.733	93.0452
64.000	93.0416
64.267	93.0370
64.533	93.0336
64.800	93.0303
65.067	93.0263
65.333	93.0239
65.600	93.0200
65.867	93.0171
66.133	93.0130
66.400	93.0093
66.667	93.0064
66.933	93.0026
67.200	92.9996
67.467	92.9968
67.733	92.9933
68.000	92.9908
68.267	92.9880
68.533	92.9854
68.800	92.9821
69.067	92.9795
69.333	92.9764
69.600	92.9731
69.867	92.9704
70.133	92.9674
70.400	92.9641
70.667	92.9616
70.933	92.9583
71.200	92.9561
71.467	92.9528
71.733	92.9497
72.000	92.9474
72.267	92.9442
72.533	92.9418
72.800	92.9388
73.067	92.9359
73.333	92.9334
73.600	92.9306
73.867	92.9285
74.133	92.9264
74.400	92.9234
74.667	92.9214
74.933	92.9183
75.200	92.9160
75.467	92.9130
75.733	92.9104
76.000	92.9086
76.267	92.9061
76.533	92.9038
76.800	92.9012
77.067	92.8991
77.333	92.8970
77.600	92.8943
77.867	92.8922
78.100	92.8902

File: Cu ink 8_10_16.txt
Filename:	D:\Users\Thermal_Users\LeBlanc\Cu ink 8-10-16.tg1d

Time (min)	Weight (mg)
0.000	67.4989
0.317	67.5015
0.633	67.4964
0.950	67.4926
1.267	67.5052
1.583	67.4271
1.900	67.3272
2.217	66.8253
2.533	64.2995
2.850	63.4313
3.167	63.0572
3.483	63.0775
3.800	63.1083
4.117	63.2404
4.433	63.3802
4.750	63.4967
5.067	63.5526
5.383	63.6925
5.700	63.8693
6.017	63.9985
6.333	64.1384
6.650	64.3028
6.967	64.4909
7.283	64.6020
7.600	64.7627
7.917	64.9035
8.233	65.0484
8.550	65.1937
8.867	65.3477
9.183	65.5045
9.500	65.6964
9.817	65.7466
10.133	65.9351
10.450	66.1138
10.767	66.2321
11.083	66.3449
11.400	66.5129
11.717	66.6327
12.033	66.7699
12.350	66.8383
12.667	66.9614
12.983	67.1190
13.300	67.2292
13.617	67.3464
13.933	67.4626
14.250	67.5551
14.567	67.6735
14.883	67.7698
15.200	67.8768
15.517	68.0029
15.833	68.0968
16.150	68.2041
16.467	68.3314
16.783	68.4308
17.100	68.5345
17.417	68.5974
17.733	68.7028
18.050	68.7889
18.367	68.8841
18.683	68.9605
19.000	68.9694
19.317	69.0042
19.633	69.0721
19.950	69.0148
20.267	69.1836
20.583	69.2131
20.900	69.2564
21.217	69.3856
21.533	69.4719
21.850	69.6853
22.167	69.7312
22.483	69.7929
22.800	69.8255
23.117	69.8581
23.433	69.8877
23.750	69.9160
24.067	69.9656
24.383	69.9978
24.700	70.0573
25.017	70.1182
25.333	70.1390
25.650	70.1678
25.967	70.0869
26.283	70.0744
26.600	70.2031
26.917	70.2478
27.233	70.2812
27.550	70.3150
27.867	70.3079
28.183	70.3387
28.500	70.3621
28.817	70.3423
29.133	70.2091
29.450	70.2418
29.767	70.2777
30.083	70.2946
30.400	70.2784
30.717	70.2839
31.033	70.3035
31.350	70.2848
31.667	70.3035
31.983	70.2978
32.300	70.2848
32.617	70.2686
32.933	70.2698
33.250	70.2745
33.567	70.2775
33.883	70.2629
34.200	70.2651
34.517	70.2380
34.833	70.2800
35.150	70.3236
35.467	70.3195
35.783	70.3304
36.100	70.3466
36.417	70.3486
36.733	70.3457
37.050	70.3527
37.367	70.3518
37.683	70.3364
38.000	70.3464
38.317	70.3303
38.633	70.2892
38.950	70.2835
39.267	70.3653
39.583	70.3415
39.900	70.3011
40.217	70.4186
40.533	70.4838
40.850	70.4196
41.167	70.3748
41.483	70.3626
41.800	70.3870
42.117	70.3915
42.433	70.3950
42.750	70.4445
43.067	70.3801
43.383	70.3715
43.700	70.3598
44.017	70.3476
44.333	70.4140
44.650	70.4261
44.967	70.4370
45.283	70.4135
45.600	70.3799
45.917	70.3841
46.233	70.3759
46.550	70.4059
46.867	70.3862
47.183	70.3905
47.500	70.3979
47.817	70.3824
48.133	70.3832
48.450	70.3904
48.767	70.4012
49.083	70.4334
49.400	70.4160
49.717	70.3983
50.033	70.3670
50.350	70.3932
50.667	70.4006
50.983	70.4049
51.300	70.4277
51.617	70.4735
51.933	70.5080
52.250	70.2976
52.567	70.5205
52.883	70.4827
53.200	70.4883
53.517	70.4788
53.833	70.4513
54.150	70.4307
54.467	70.4512
54.783	70.4891
55.100	70.5125
55.417	70.4685
55.733	70.4597
56.050	70.4516
56.367	70.4791
56.683	70.4815
57.000	70.4876
57.317	70.4851
57.633	70.4719
57.950	70.4796
58.267	70.5146
58.583	70.5245
58.900	70.5314
59.217	70.5322
59.533	70.5383
59.850	70.5128
60.167	70.5378
60.483	70.5616
60.800	70.5821
61.117	70.5770
61.433	70.5776
61.750	70.6392
62.067	70.5974
62.383	70.5784
62.700	70.5961
63.017	70.6409
63.333	70.7399
63.650	70.5870
63.967	70.6005
64.283	70.6023
64.600	70.5825
64.917	70.5996
65.233	70.6472
65.550	70.6346
65.867	70.6056
66.183	70.6047
66.500	70.6226
66.817	70.6326
67.133	70.6405
67.450	70.5931
67.767	70.5652
68.083	70.5434
68.400	70.5307
68.717	70.5157
69.033	70.5072
69.350	70.5358
69.667	70.5513
69.983	70.5355
70.300	70.5311
70.617	70.5525
70.933	70.5611
71.250	70.5473
71.567	70.5614
71.883	70.5444
72.200	70.5338
72.517	70.5666
72.833	70.5809
73.150	70.5835
73.467	70.5530
73.783	70.5398
74.100	70.5457
74.417	70.5442
74.733	70.5469
75.050	70.5279
75.367	70.5059
75.683	70.5076
76.000	70.5251
76.317	70.5320
76.633	70.5488
76.950	70.5473
77.267	70.5235
77.583	70.5342
77.900	70.5269
78.217	70.5372
78.533	70.5232
78.850	70.5179
79.167	70.5417
79.483	70.5226
79.800	70.5201
80.117	70.5220
80.433	70.5111
80.750	70.4997
81.067	70.4916
81.383	70.6638
81.700	70.5139
82.017	70.5219
82.333	70.5537
82.650	70.5402
82.967	70.5607
83.283	70.5378
83.600	70.5473
83.917	70.5287
84.233	70.5272
84.550	70.5010
84.867	70.4884
85.183	70.5077
85.500	70.5094
85.817	70.5092
86.133	70.5220
86.450	70.5185
86.767	70.5282
87.083	70.5269
87.400	70.5492
87.717	70.5413
88.033	70.5400
88.350	70.5403
88.667	70.5490
88.983	70.5606
89.300	70.5616
89.617	70.5752
89.933	70.5814
90.250	70.5890
90.567	70.7241
90.883	70.5624
91.200	70.5437
91.517	70.5584
91.833	70.5579
92.150	70.5620
92.467	70.5766
92.783	70.6507
92.850	70.7278

File: Cu_ink_8_8_16.txt
Filename:	D:\Users\Thermal_Users\LeBlanc\Cu ink 8_8_16.tg1d

Time (min)	Weight % (%)
0.000	100.0101
0.150	100.0176
0.300	100.0070
0.450	99.9979
0.600	99.9909
0.750	99.9874
0.900	99.9821
1.050	99.9796
1.200	99.9806
1.350	99.9822
1.500	100.0581
1.650	99.9837
1.800	99.8742
1.950	99.7477
2.100	99.6356
2.250	99.5605
2.400	99.5232
2.550	99.5238
2.700	99.5542
2.850	99.6053
3.000	99.6687
3.150	99.7370
3.300	99.8094
3.450	99.8798
3.600	99.9502
3.750	100.0172
3.900	100.0875
4.050	100.1558
4.200	100.2253
4.350	100.2941
4.500	100.3632
4.650	100.4324
4.800	100.5022
4.950	100.5665
5.100	100.6323
5.250	100.6943
5.400	100.7529
5.550	100.8079
5.700	100.8583
5.850	100.9040
6.000	100.9472
6.150	100.9841
6.300	101.0157
6.450	101.0443
6.600	101.0688
6.750	101.0865
6.900	101.1011
7.050	101.1096
7.200	101.1161
7.350	101.1179
7.500	101.1167
7.650	101.1126
7.800	101.1009
7.950	101.0904
8.100	101.0765
8.250	101.0596
8.400	101.0406
8.550	101.0180
8.700	100.9963
8.850	100.9704
9.000	100.9462
9.150	100.9208
9.300	100.8952
9.450	100.8715
9.600	100.8467
9.750	100.8223
9.900	100.7958
10.050	100.7708
10.200	100.7453
10.350	100.7241
10.500	100.7050
10.650	100.6882
10.800	100.6738
10.950	100.6566
11.100	100.6390
11.250	100.6184
11.400	100.5971
11.550	100.5709
11.700	100.5437
11.850	100.5134
12.000	100.4798
12.150	100.4450
12.300	100.4071
12.450	100.3682
12.600	100.3290
12.750	100.2905
12.900	100.2527
13.050	100.2167
13.200	100.1816
13.350	100.1499
13.500	100.1183
13.650	100.0867
13.800	100.0561
13.950	100.0254
14.100	99.9943
14.250	99.9622
14.400	99.9294
14.550	99.8951
14.700	99.8607
14.850	99.8249
15.000	99.7861
15.150	99.7485
15.300	99.7085
15.450	99.6666
15.600	99.6270
15.750	99.5848
15.900	99.5458
16.050	99.5097
16.200	99.4728
16.350	99.4398
16.500	99.4099
16.650	99.3837
16.800	99.3605
16.950	99.3404
17.100	99.3227
17.250	99.3100
17.400	99.2971
17.550	99.2888
17.700	99.2789
17.850	99.2734
18.000	99.2696
18.150	99.2675
18.300	99.2663
18.450	99.2686
18.600	99.2722
18.750	99.2773
18.900	99.2852
19.050	99.2918
19.200	99.3003
19.350	99.3109
19.500	99.3209
19.650	99.3311
19.800	99.3425
19.950	99.3525
20.100	99.3641
20.250	99.3740
20.400	99.3839
20.550	99.3950
20.700	99.4005
20.850	99.4100
21.000	99.4176
21.150	99.4261
21.300	99.4322
21.450	99.4384
21.600	99.4442
21.750	99.4491
21.900	99.4537
22.050	99.4581
22.200	99.4638
22.350	99.4678
22.500	99.4717
22.650	99.4763
22.800	99.4802
22.950	99.4841
23.100	99.4874
23.250	99.4914
23.400	99.4966
23.550	99.4998
23.700	99.5048
23.850	99.5090
24.000	99.5143
24.150	99.5183
24.300	99.5229
24.450	99.5284
24.600	99.5340
24.750	99.5381
24.900	99.5440
25.050	99.5493
25.200	99.5564
25.350	99.5632
25.500	99.5688
25.650	99.5763
25.800	99.5825
25.950	99.5905
26.100	99.5976
26.250	99.6057
26.400	99.6134
26.550	99.6216
26.700	99.6296
26.850	99.6386
27.000	99.6472
27.150	99.6568
27.300	99.6658
27.450	99.6765
27.600	99.6859
27.750	99.6963
27.900	99.7070
28.050	99.7179
28.200	99.7277
28.350	99.7393
28.500	99.7504
28.650	99.7618
28.800	99.7711
28.950	99.7854
29.100	99.7951
29.250	99.8077
29.400	99.8183
29.550	99.8315
29.700	99.8424
29.850	99.8551
30.000	99.8666
30.150	99.8781
30.300	99.8907
30.450	99.9025
30.600	99.9139
30.750	99.9245
30.900	99.9348
31.050	99.9469
31.200	99.9579
31.350	99.9682
31.500	99.9767
31.650	99.9897
31.800	99.9985
31.950	100.0107
32.100	100.0180
32.250	100.0299
32.400	100.0381
32.550	100.0478
32.700	100.0578
32.850	100.0666
33.000	100.0760
33.150	100.0855
33.300	100.0939
33.450	100.1049
33.600	100.1122
33.750	100.1215
33.900	100.1302
34.050	100.1389
34.200	100.1486
34.350	100.1557
34.500	100.1634
34.650	100.1723
34.800	100.1806
34.950	100.1900
35.100	100.1968
35.250	100.2054
35.400	100.2137
35.550	100.2226
35.700	100.2306
35.850	100.2388
36.000	100.2474
36.150	100.2543
36.300	100.2619
36.450	100.2718
36.600	100.2787
36.750	100.2849
36.900	100.2946
37.050	100.3011
37.200	100.3090
37.350	100.3164
37.500	100.3227
37.650	100.3311
37.800	100.3375
37.950	100.3463
38.100	100.3523
38.250	100.3612
38.400	100.3679
38.550	100.3750
38.700	100.3822
38.850	100.3891
39.000	100.3971
39.150	100.4045
39.300	100.4122
39.450	100.4183
39.600	100.4258
39.750	100.4327
39.900	100.4398
40.050	100.4469
40.200	100.4538
40.350	100.4593
40.500	100.4668
40.650	100.4743
40.800	100.4807
40.950	100.4876
41.100	100.4943
41.250	100.5009
41.400	100.5068
41.550	100.5140
41.700	100.5191
41.850	100.5276
42.000	100.5313
42.150	100.5388
42.300	100.5441
42.450	100.5523
42.600	100.5574
42.750	100.5639
42.900	100.5704
43.050	100.5770
43.200	100.5819
43.350	100.5885
43.500	100.5949
43.650	100.6025
43.800	100.6077
43.950	100.6141
44.100	100.6198
44.250	100.6255
44.400	100.6319
44.500	100.6363